Folder: xrd_to_bragg_peaks/data

Note: README.md
# xrd_to_bragg_peaks
Prototype repo to develop the code that iNEUIT will use in the `XRD to Bragg peak` application

File: GraphiteAnode_SolventFree_12072023.asc
*TYPE		=  Raw
*CLASS		=  ASCII CLASS
*SAMPLE		=  powder
*COMMENT	=
*FNAME		=  GraphiteAnode_SolventFree_12072023_Theta_2-Theta.asc
*DATE		=  07-Dec-23 18:54

*GROUP_COUNT	=  1
*GONIO		=  MiniFlex 300/600, 150
*ATTACHMENT	=  ASC-6
*ASC		=  0, 0, 0.000000, 0.000000
*FILTER		=  None
*C_MONOCHRO	=  Bent, 0.000000
*SLIT_NAME	=  0, IHS
*SLIT_NAME	=  1, DS
*SLIT_NAME	=  2, SS
*SLIT_NAME	=  3, RS
*COUNTER	=  SC-70, 0
*POS_FORMAT	=  0
*SCAN_AXIS	=  2theta/theta
*MEAS_MODE	=  Continuous Scanning
*TARGET		=  29
*XRAY_CHAR	=  K-ALPHA
*WAVE_LENGTH1	=  1.54059
*WAVE_LENGTH2	=  1.54441
*THICKNESS	=  0, 0.000000
*MU		=  0, 0.000000
*SCAN_MODE	=  2theta/theta
*SPEED_DIM	=  sec./step
*XUNIT		=  deg.
*YUNIT		=  counts
*SCALE_MODE	=  1
*REP_COUNT	=  0
*SE_COUNT	=  0
*STD_MATERIAL	=  Unknown, Unknown, 0.000000, 0.000000, 0.000000, 0.000000, 0.000000, 0.000000
*LATT_CONS	=  0, Unknown, Unknown, 0.000000, 0.000000, 0.000000, 0.000000, 0.000000, 0.000000
*SEC_COUNT	=  1
*TSPEC_SIZE	=  0
*EXTRA_SIZE	=  0
*MEMO		=

*BEGIN
*GROUP		=  0
*START		=  20
*STOP		=  120
*STEP		=  0.01
*OFFSET		=  0.000000
*SPEED		=  1.2
*SLIT_SPEC	=  0, 10.0mm, 10, 0.000000
*SLIT_SPEC	=  1, 1.250deg, 1.25, 0.000000
*SLIT_SPEC	=  2, 1.250deg, 1.25, 0.000000
*SLIT_SPEC	=  3, 0.3mm, 0.3, 0.000000
*KV		=  40
*MA		=  15
*LOW		=  0.000000
*HIGH		=  0.000000
*CTEMPER	=  0, 0.000000
*CTEMPER	=  1, 0.000000
*CTEMPER	=  2, 0.000000
*PAREX		=  0, 0.000000
*PAREX		=  1, 0.000000
*PAREX		=  2, 0.000000
*PAREX		=  3, 0.000000
*PAREX		=  4, 0.000000
*PAREX		=  5, 0.000000
*PAREX		=  6, 0.000000
*PAREX		=  7, 0.000000
*PAREX		=  8, 0.000000
*PAREX		=  9, 0.000000
*PAREX		=  10, 0.000000
*PAREX		=  11, 0.000000
*PAREX		=  12, 0.000000
*PAREX		=  13, 0.000000
*PAREX		=  14, 0.000000
*PAREX		=  15, 0.000000
*FULL_SCALE	=  30022
*INDEX		=  0, 0, 0
*COUNT		=  10001
165, 187, 159, 160
132, 148, 158, 149
130, 117, 151, 145
144, 166, 122, 152
113, 148, 133, 127
137, 137, 135, 141
133, 144, 141, 136
146, 154, 147, 174
168, 148, 155, 168
177, 144, 142, 156
162, 174, 136, 180
169, 196, 202, 170
206, 210, 200, 237
252, 243, 216, 224
243, 262, 254, 293
335, 287, 296, 305
477, 485, 447, 480
1655, 1795, 1891, 1931
23148, 24134, 25360, 26235
2265, 2148, 2019, 1874
482, 456, 434, 462
225, 248, 244, 248
174, 187, 177, 164
158, 155, 158, 140
125, 131, 127, 122
109, 130, 124, 122
109, 114, 100, 104
89, 102, 96, 98
87, 102, 96, 95
97, 90, 82, 95
98, 101, 90, 118
94, 88, 66, 82
94, 94, 93, 91
77, 70, 71, 89
75, 108, 75, 84
86, 89, 64, 78
64, 78, 77, 87
92, 87, 82, 76
62, 96, 67, 79
81, 77, 78, 75
77, 93, 78, 97
82, 74, 84, 77
80, 79, 85, 72
90, 81, 98, 78
93, 74, 83, 83
71, 87, 78, 78
86, 98, 89, 84
72, 70, 79, 65
95, 96, 67, 81
94, 71, 80, 69
79, 85, 87, 109
102, 73, 87, 80
88, 97, 82, 80
104, 85, 92, 98
103, 78, 81, 65
93, 98, 106, 79
96, 88, 102, 78
99, 87, 84, 99
77, 91, 93, 96
111, 114, 90, 87
93, 98, 89, 99
102, 93, 114, 101
332, 345, 371, 373
224, 189, 220, 215
231, 219, 245, 249
362, 339, 375, 373
351, 355, 384, 357
412, 427, 399, 405
651, 702, 736, 694
418, 429, 456, 411
329, 291, 275, 284
219, 229, 249, 229
240, 249, 237, 212
196, 184, 193, 188
184, 157, 126, 131
135, 127, 104, 129
107, 114, 118, 116
130, 101, 125, 109
112, 95, 107, 122
88, 105, 118, 117
112, 97, 95, 118
135, 119, 107, 99
99, 116, 104, 125
138, 111, 130, 123
111, 136, 133, 133
159, 142, 155, 149
154, 140, 166, 140
144, 138, 120, 118
134, 128, 115, 127
116, 125, 112, 120
127, 110, 129, 97
119, 135, 129, 108
105, 119, 128, 117
138, 148, 128, 122
149, 139, 137, 141
251, 260, 252, 302
1382, 1494, 1500, 1614
542, 492, 451, 460
185, 154, 157, 155
115, 131, 129, 136
129, 127, 107, 145
129, 147, 132, 115
131, 131, 112, 134
126, 139, 134, 140
108, 144, 126, 106
105, 98, 103, 110
122, 128, 132, 126
104, 109, 122, 147
131, 121, 123, 144
125, 142, 124, 148
169, 170, 186, 172
179, 177, 176, 189
155, 157, 151, 153
127, 97, 123, 119
126, 103, 115, 110
119, 108, 101, 118
87, 116, 92, 90
114, 111, 91, 103
90, 117, 121, 86
69, 93, 112, 93
107, 106, 89, 102
87, 97, 91, 104
79, 80, 80, 94
89, 87, 78, 82
75, 91, 66, 82
87, 72, 79, 94
66, 100, 96, 79
91, 70, 61, 73
112, 66, 74, 83
85, 71, 71, 78
79, 91, 65, 80
50, 79, 65, 74
75, 66, 76, 81
73, 81, 78, 67
96, 59, 73, 73
87, 77, 59, 85
74, 66, 79, 91
64, 64, 81, 60
73, 70, 64, 65
81, 83, 84, 74
67, 71, 78, 73
89, 79, 58, 69
69, 71, 85, 68
75, 67, 72, 92
88, 61, 69, 83
68, 85, 72, 69
89, 72, 67, 81
73, 76, 66, 77
62, 75, 74, 76
60, 76, 76, 63
66, 77, 80, 68
61, 84, 88, 61
52, 68, 80, 53
66, 68, 82, 63
60, 63, 71, 72
77, 72, 70, 66
74, 54, 76, 75
76, 59, 79, 62
69, 91, 74, 67
130, 147, 136, 146
362, 375, 325, 371
102, 98, 106, 101
74, 86, 94, 80
79, 76, 76, 70
90, 87, 83, 74
67, 88, 70, 83
77, 75, 79, 62
82, 78, 91, 67
73, 86, 84, 82
76, 75, 79, 67
77, 82, 57, 71
92, 79, 76, 93
74, 86, 80, 72
111, 77, 71, 82
72, 89, 73, 80
128, 117, 108, 105
261, 276, 253, 274
441, 434, 377, 419
184, 209, 143, 175
92, 108, 121, 104
101, 113, 95, 87
75, 110, 87, 93
90, 90, 102, 119
95, 95, 78, 91
83, 84, 101, 82
101, 85, 103, 117
230, 234, 260, 257
170, 189, 185, 176
66, 85, 91, 73
73, 77, 81, 72
73, 61, 54, 73
72, 73, 70, 68
76, 74, 67, 70
71, 68, 70, 72
80, 63, 75, 47
63, 53, 75, 64
54, 70, 76, 63
55, 68, 67, 58
79, 70, 64, 59
70, 61, 64, 65
54, 62, 68, 61
66, 68, 81, 73
59, 69, 73, 55
59, 68, 71, 73
87, 74, 75, 74
79, 91, 80, 58
72, 84, 90, 89
76, 70, 75, 66
68, 74, 73, 74
68, 61, 73, 68
60, 67, 73, 71
64, 56, 57, 66
64, 65, 65, 57
72, 58, 64, 69
73, 72, 68, 58
54, 56, 60, 60
60, 67, 56, 52
63, 67, 66, 60
69, 56, 59, 65
60, 63, 71, 78
69, 66, 63, 74
60, 72, 60, 76
75, 72, 56, 62
70, 78, 68, 66
92, 77, 86, 69
72, 89, 113, 106
123, 136, 112, 127
224, 224, 234, 243
221, 234, 193, 222
159, 131, 137, 140
95, 95, 99, 86
80, 83, 80, 100
81, 73, 90, 98
71, 60, 69, 67
64, 75, 74, 60
69, 67, 58, 86
63, 60, 78, 74
75, 80, 72, 61
74, 68, 65, 79
72, 77, 70, 80
69, 75, 64, 86
75, 71, 74, 73
78, 64, 77, 61
69, 65, 69, 67
62, 59, 62, 64
62, 68, 83, 62
57, 67, 60, 76
62, 67, 55, 63
65, 77, 61, 61
67, 64, 78, 64
84, 72, 61, 66
67, 68, 68, 74
55, 61, 74, 69
70, 66, 73, 70
56, 66, 54, 54
53, 54, 63, 65
66, 73, 70, 63
77, 63, 64, 59
71, 79, 67, 76
61, 70, 69, 62
67, 82, 61, 68
66, 68, 61, 78
76, 78, 88, 85
76, 56, 63, 61
78, 69, 72, 68
69, 71, 80, 71
80, 90, 75, 78
89, 72, 67, 66
83, 72, 65, 79
68, 77, 66, 62
82, 75, 78, 74
75, 76, 89, 77
75, 81, 68, 91
75, 76, 79, 66
91, 69, 54, 73
79, 79, 93, 64
76, 76, 91, 71
71, 78, 84, 65
74
*END

*EOF